# PDF#44-1472: QM=Star(+); d=Diffractometer; I=Diffractometer
# Rhodochrosite, syn
# Mn C O3	(Light brown)
# Radiation=CuKa1	Lambda=1.54056	Filter=Graph
# Calibration=	d-Cutoff=15.0	I/Ic(RIR)=2.8
# Ref= Sailer, R., McCarthy, G., North Dakota State University, Fargo, North Dakota, USA.
# ICDD Grant-in-Aid (1992)
# Rhombohedral - Powder Diffraction,  R-3c (167)	Z=6	mp=
# Cell=4.7901x15.694	Pearson=hR10 (?)
# Density(c)=3.672	Density(m)=3.03A	Mwt=114.95	Vol=311.86	F(30)=170.8(.0057,31)
# Ref= Ibid.

# Strong Line: 2.85/X 3.67/3 1.77/3 2.18/2 2.01/2 2.40/2 1.54/1 1.83/1 1.38/1 1.46/1
# NOTE:  Sample was obtained from Johnson Matthey Company.
# Average relative standard deviation in intensity of the ten strongest reflections for three specimen mounts = 1.6%.
# Validated by calculated pattern.
# To replace 00-007-0268.
# See ICSD 100677 (PDF 01-083-1763).

# d(A)     I(f)   I(v)  h  k   l  n^2  2-Theta   Theta  1/(2d)   2pi/d  
 3.667   29.0   23.0  0  1   2        24.251  12.126  0.1364  1.7134
 2.850  100.0  100.0  1  0   4        31.361  15.681  0.1754  2.2046
 2.617    1.0    1.0  0  0   6        34.236  17.118  0.1911  2.4009
 2.395   15.0   18.0  1  1   0        37.522  18.761  0.2088  2.6235
 2.178   19.0   25.0  1  1   3        41.423  20.712  0.2296  2.8848
 2.005   17.0   24.0  2  0   2        45.186  22.593  0.2494  3.1338
 1.833    7.0   11.0  0  2   4        49.678  24.839  0.2727  3.4265
 1.773   23.0   37.0  0  1   8        51.488  25.744  0.2819  3.5430
 1.767   29.0   47.0  1  1   6        51.688  25.844  0.2830  3.5558
 1.559    2.0    4.0  2  1   1        59.181  29.591  0.3205  4.0279
 1.537    8.0   15.0  1  2   2        60.132  30.066  0.3252  4.0866
 1.467    2.0    4.0  1  0  10        63.341  31.671  0.3408  4.2827
 1.456    5.0   10.0  2  1   4        63.881  31.941  0.3434  4.3154
 1.425    3.0    6.0  2  0   8        65.431  32.716  0.3508  4.4086
 1.409    2.0    4.0  1  1   9        66.243  33.121  0.3547  4.4571
 1.402    2.0    4.0  1  2   5        66.622  33.311  0.3565  4.4797
 1.382    6.0   12.0  3  0   0        67.703  33.852  0.3616  4.5438
 1.307    2.0    4.0  0  0  12        72.171  36.085  0.3823  4.8044
 1.284    1.0    2.0  2  1   7        73.666  36.833  0.3891  4.8900
 1.251    1.0    2.0  0  2  10        75.989  37.994  0.3996  5.0213
 1.224    3.0    7.0  1  2   8        77.938  38.969  0.4082  5.1300
 1.222    2.0    5.0  3  0   6        78.113  39.056  0.4090  5.1396
 1.197    1.0    2.0  2  2   0        80.068  40.034  0.4175  5.2469
 1.167    1.0    2.0  2  2   3        82.573  41.287  0.4283  5.3822
 1.147    1.0    2.0  1  1  12        84.303  42.151  0.4356  5.4741
 1.138    1.0    3.0  3  1   2        85.162  42.581  0.4392  5.5193
 1.109    2.0    5.0  2  1  10        87.966  43.983  0.4508  5.6646
 1.104    3.0    8.0  1  3   4        88.478  44.239  0.4529  5.6908
 1.088    2.0    5.0  2  2   6        90.057  45.028  0.4592  5.7707
 1.082    1.0    3.0  0  1  14        90.759  45.379  0.4620  5.8059
 1.055    1.0    3.0  1  2  11        93.759  46.879  0.4738  5.9539
 1.002    1.0    3.0  4  0   4       100.400  50.200  0.4987  6.2669
 0.992    2.0    6.0  3  1   8       101.818  50.909  0.5038  6.3310
 0.987    1.0    3.0  2  2   9       102.577  51.289  0.5065  6.3650
 0.986    1.0    3.0  2  0  14       102.718  51.359  0.5070  6.3712
 0.958    1.0    3.0  1  1  15       106.913  53.456  0.5215  6.5534
 0.956    1.0    3.0  2  1  13       107.274  53.637  0.5227  6.5687
 0.954    1.0    3.0  1  0  16       107.599  53.800  0.5238  6.5824
 0.950    2.0    6.0  3  2   1       108.344  54.172  0.5263  6.6135
 0.950    2.0    6.0  3  0  12       108.344  54.172  0.5263  6.6135
 0.944    1.0    3.0  2  3   2       109.238  54.619  0.5292  6.6506
 0.924    1.0    3.0  3  2   4       112.786  56.393  0.5406  6.7936
 0.916    1.0    3.0  0  4   8       114.338  57.169  0.5454  6.8541
 0.911    1.0    3.0  1  2  14       115.279  57.640  0.5483  6.8902
 0.910    1.0    3.0  2  3   5       115.510  57.755  0.5490  6.8990
 0.905    1.0    3.0  4  1   0       116.622  58.311  0.5523  6.9409
